beginTask.keys,beginTask.rt,study_intro.thisRepN,study_intro.thisTrialN,study_intro.thisN,study_intro.thisIndex,study_intro.ran,intro,overall_instr,category_instr,inverseImg,originalImg,invLocX,oriLocX,invLocY,oriLocY,participant_id,condition,date,expName,psychopyVersion,OS,frameRate,begin_rc.keys,begin_rc.rt,cat_loop.thisRepN,cat_loop.thisTrialN,cat_loop.thisN,cat_loop.thisIndex,cat_loop.ran,image_choice.keys,image_choice.rt,trials.thisRepN,trials.thisTrialN,trials.thisN,trials.thisIndex,trials.ran,age_resp.keys,age_resp.rt,sex_resp.keys,sex_resp.rt,race_resp.keys,race_resp.rt
space,23.4447,0,0,0,0,1,"Bullshit is defined as any statement constructed without regard to the truth. This is in contrast to a lie, which is constructed with the truth as a reference point.

Bullshitters are people who continuously spread bullshit out into the world. While bullshit is frequently encountered in daily life, little is known about how people mentally visualize what a bullshitter looks like. This study was designed to do that.

The following quotes are examples of bullshit. Each of these is designed to sound profound or inspirational but are actually just jumbles of random words in a correct synactical structure without any semantic meaning:

'Synergistic strategies holistically predominate adaptive potentialities.'

'Thriving companies collaboratively utilize parallel fungibility.'

'In the near future, brave pioneers will use crowdsourcing to rapidly transform communities.'

'Soon, engaged change-makers will use virtual reality to efficiently socialize ideas.'

Press the SPACE BAR to continue to the next page.","You will be asked to classify faces as BULLSHITTERS!

In the next section, please indicate whether you believe the face on the left or the face on the right looks more like a BULLSHITTER.

Please use the LEFT and RIGHT arrow keys to indicate your response.

Press the SPACE BAR when you're ready to begin!",Which image looks most like a BULLSHITTER?,stimuli/rcic_base_1_00002_inv.jpg,stimuli/rcic_base_1_00002_ori.jpg,300,-300,0,0,6084343,1,2023-10-23_13h08.16.264,image_generation_task,2022.2.5,Win32,59.74786401,,,,,,,,,,,,,,,,,,,,
,,,,,,,"Bullshit is defined as any statement constructed without regard to the truth. This is in contrast to a lie, which is constructed with the truth as a reference point.

Bullshitters are people who continuously spread bullshit out into the world. While bullshit is frequently encountered in daily life, little is known about how people mentally visualize what a bullshitter looks like. This study was designed to do that.

The following quotes are examples of bullshit. Each of these is designed to sound profound or inspirational but are actually just jumbles of random words in a correct synactical structure without any semantic meaning:

'Synergistic strategies holistically predominate adaptive potentialities.'

'Thriving companies collaboratively utilize parallel fungibility.'

'In the near future, brave pioneers will use crowdsourcing to rapidly transform communities.'

'Soon, engaged change-makers will use virtual reality to efficiently socialize ideas.'

Press the SPACE BAR to continue to the next page.","You will be asked to classify faces as BULLSHITTERS!

In the next section, please indicate whether you believe the face on the left or the face on the right looks more like a BULLSHITTER.

Please use the LEFT and RIGHT arrow keys to indicate your response.

Press the SPACE BAR when you're ready to begin!",Which image looks most like a BULLSHITTER?,stimuli/rcic_base_1_00002_inv.jpg,stimuli/rcic_base_1_00002_ori.jpg,300,-300,0,0,6084343,1,2023-10-23_13h08.16.264,image_generation_task,2022.2.5,Win32,59.74786401,space,2.8868,0,0,0,0,1,,,,,,,,,,,,,
,,,,,,,"Bullshit is defined as any statement constructed without regard to the truth. This is in contrast to a lie, which is constructed with the truth as a reference point.

Bullshitters are people who continuously spread bullshit out into the world. While bullshit is frequently encountered in daily life, little is known about how people mentally visualize what a bullshitter looks like. This study was designed to do that.

The following quotes are examples of bullshit. Each of these is designed to sound profound or inspirational but are actually just jumbles of random words in a correct synactical structure without any semantic meaning:

'Synergistic strategies holistically predominate adaptive potentialities.'

'Thriving companies collaboratively utilize parallel fungibility.'

'In the near future, brave pioneers will use crowdsourcing to rapidly transform communities.'

'Soon, engaged change-makers will use virtual reality to efficiently socialize ideas.'

Press the SPACE BAR to continue to the next page.","You will be asked to classify faces as BULLSHITTERS!

In the next section, please indicate whether you believe the face on the left or the face on the right looks more like a BULLSHITTER.

Please use the LEFT and RIGHT arrow keys to indicate your response.

Press the SPACE BAR when you're ready to begin!",Which image looks most like a BULLSHITTER?,stimuli/rcic_base_1_00103_inv.jpg,stimuli/rcic_base_1_00103_ori.jpg,-300,300,0,0,6084343,1,2023-10-23_13h08.16.264,image_generation_task,2022.2.5,Win32,59.74786401,,,,,,,,left,16.9991,0,0,0,102,1,,,,,,
,,,,,,,"Bullshit is defined as any statement constructed without regard to the truth. This is in contrast to a lie, which is constructed with the truth as a reference point.

Bullshitters are people who continuously spread bullshit out into the world. While bullshit is frequently encountered in daily life, little is known about how people mentally visualize what a bullshitter looks like. This study was designed to do that.

The following quotes are examples of bullshit. Each of these is designed to sound profound or inspirational but are actually just jumbles of random words in a correct synactical structure without any semantic meaning:

'Synergistic strategies holistically predominate adaptive potentialities.'

'Thriving companies collaboratively utilize parallel fungibility.'

'In the near future, brave pioneers will use crowdsourcing to rapidly transform communities.'

'Soon, engaged change-makers will use virtual reality to efficiently socialize ideas.'

Press the SPACE BAR to continue to the next page.","You will be asked to classify faces as BULLSHITTERS!

In the next section, please indicate whether you believe the face on the left or the face on the right looks more like a BULLSHITTER.

Please use the LEFT and RIGHT arrow keys to indicate your response.

Press the SPACE BAR when you're ready to begin!",Which image looks most like a BULLSHITTER?,stimuli/rcic_base_1_00226_inv.jpg,stimuli/rcic_base_1_00226_ori.jpg,300,-300,0,0,6084343,1,2023-10-23_13h08.16.264,image_generation_task,2022.2.5,Win32,59.74786401,,,,,,,,left,2.321,0,1,1,225,1,,,,,,
,,,,,,,"Bullshit is defined as any statement constructed without regard to the truth. This is in contrast to a lie, which is constructed with the truth as a reference point.

Bullshitters are people who continuously spread bullshit out into the world. While bullshit is frequently encountered in daily life, little is known about how people mentally visualize what a bullshitter looks like. This study was designed to do that.

The following quotes are examples of bullshit. Each of these is designed to sound profound or inspirational but are actually just jumbles of random words in a correct synactical structure without any semantic meaning:

'Synergistic strategies holistically predominate adaptive potentialities.'

'Thriving companies collaboratively utilize parallel fungibility.'

'In the near future, brave pioneers will use crowdsourcing to rapidly transform communities.'

'Soon, engaged change-makers will use virtual reality to efficiently socialize ideas.'

Press the SPACE BAR to continue to the next page.","You will be asked to classify faces as BULLSHITTERS!

In the next section, please indicate whether you believe the face on the left or the face on the right looks more like a BULLSHITTER.

Please use the LEFT and RIGHT arrow keys to indicate your response.

Press the SPACE BAR when you're ready to begin!",Which image looks most like a BULLSHITTER?,stimuli/rcic_base_1_00118_inv.jpg,stimuli/rcic_base_1_00118_ori.jpg,300,-300,0,0,6084343,1,2023-10-23_13h08.16.264,image_generation_task,2022.2.5,Win32,59.74786401,,,,,,,,left,1.4266,0,2,2,117,1,,,,,,
,,,,,,,"Bullshit is defined as any statement constructed without regard to the truth. This is in contrast to a lie, which is constructed with the truth as a reference point.

Bullshitters are people who continuously spread bullshit out into the world. While bullshit is frequently encountered in daily life, little is known about how people mentally visualize what a bullshitter looks like. This study was designed to do that.

The following quotes are examples of bullshit. Each of these is designed to sound profound or inspirational but are actually just jumbles of random words in a correct synactical structure without any semantic meaning:

'Synergistic strategies holistically predominate adaptive potentialities.'

'Thriving companies collaboratively utilize parallel fungibility.'

'In the near future, brave pioneers will use crowdsourcing to rapidly transform communities.'

'Soon, engaged change-makers will use virtual reality to efficiently socialize ideas.'

Press the SPACE BAR to continue to the next page.","You will be asked to classify faces as BULLSHITTERS!

In the next section, please indicate whether you believe the face on the left or the face on the right looks more like a BULLSHITTER.

Please use the LEFT and RIGHT arrow keys to indicate your response.

Press the SPACE BAR when you're ready to begin!",Which image looks most like a BULLSHITTER?,stimuli/rcic_base_1_00278_inv.jpg,stimuli/rcic_base_1_00278_ori.jpg,300,-300,0,0,6084343,1,2023-10-23_13h08.16.264,image_generation_task,2022.2.5,Win32,59.74786401,,,,,,,,left,1.916,0,3,3,277,1,,,,,,
,,,,,,,"Bullshit is defined as any statement constructed without regard to the truth. This is in contrast to a lie, which is constructed with the truth as a reference point.

Bullshitters are people who continuously spread bullshit out into the world. While bullshit is frequently encountered in daily life, little is known about how people mentally visualize what a bullshitter looks like. This study was designed to do that.

The following quotes are examples of bullshit. Each of these is designed to sound profound or inspirational but are actually just jumbles of random words in a correct synactical structure without any semantic meaning:

'Synergistic strategies holistically predominate adaptive potentialities.'

'Thriving companies collaboratively utilize parallel fungibility.'

'In the near future, brave pioneers will use crowdsourcing to rapidly transform communities.'

'Soon, engaged change-makers will use virtual reality to efficiently socialize ideas.'

Press the SPACE BAR to continue to the next page.","You will be asked to classify faces as BULLSHITTERS!

In the next section, please indicate whether you believe the face on the left or the face on the right looks more like a BULLSHITTER.

Please use the LEFT and RIGHT arrow keys to indicate your response.

Press the SPACE BAR when you're ready to begin!",Which image looks most like a BULLSHITTER?,stimuli/rcic_base_1_00208_inv.jpg,stimuli/rcic_base_1_00208_ori.jpg,300,-300,0,0,6084343,1,2023-10-23_13h08.16.264,image_generation_task,2022.2.5,Win32,59.74786401,,,,,,,,right,4.9462,0,4,4,207,1,,,,,,
,,,,,,,"Bullshit is defined as any statement constructed without regard to the truth. This is in contrast to a lie, which is constructed with the truth as a reference point.

Bullshitters are people who continuously spread bullshit out into the world. While bullshit is frequently encountered in daily life, little is known about how people mentally visualize what a bullshitter looks like. This study was designed to do that.

The following quotes are examples of bullshit. Each of these is designed to sound profound or inspirational but are actually just jumbles of random words in a correct synactical structure without any semantic meaning:

'Synergistic strategies holistically predominate adaptive potentialities.'

'Thriving companies collaboratively utilize parallel fungibility.'

'In the near future, brave pioneers will use crowdsourcing to rapidly transform communities.'

'Soon, engaged change-makers will use virtual reality to efficiently socialize ideas.'

Press the SPACE BAR to continue to the next page.","You will be asked to classify faces as BULLSHITTERS!

In the next section, please indicate whether you believe the face on the left or the face on the right looks more like a BULLSHITTER.

Please use the LEFT and RIGHT arrow keys to indicate your response.

Press the SPACE BAR when you're ready to begin!",Which image looks most like a BULLSHITTER?,stimuli/rcic_base_1_00143_inv.jpg,stimuli/rcic_base_1_00143_ori.jpg,-300,300,0,0,6084343,1,2023-10-23_13h08.16.264,image_generation_task,2022.2.5,Win32,59.74786401,,,,,,,,right,1.3743,0,5,5,142,1,,,,,,
,,,,,,,"Bullshit is defined as any statement constructed without regard to the truth. This is in contrast to a lie, which is constructed with the truth as a reference point.

Bullshitters are people who continuously spread bullshit out into the world. While bullshit is frequently encountered in daily life, little is known about how people mentally visualize what a bullshitter looks like. This study was designed to do that.

The following quotes are examples of bullshit. Each of these is designed to sound profound or inspirational but are actually just jumbles of random words in a correct synactical structure without any semantic meaning:

'Synergistic strategies holistically predominate adaptive potentialities.'

'Thriving companies collaboratively utilize parallel fungibility.'

'In the near future, brave pioneers will use crowdsourcing to rapidly transform communities.'

'Soon, engaged change-makers will use virtual reality to efficiently socialize ideas.'

Press the SPACE BAR to continue to the next page.","You will be asked to classify faces as BULLSHITTERS!

In the next section, please indicate whether you believe the face on the left or the face on the right looks more like a BULLSHITTER.

Please use the LEFT and RIGHT arrow keys to indicate your response.

Press the SPACE BAR when you're ready to begin!",Which image looks most like a BULLSHITTER?,stimuli/rcic_base_1_00040_inv.jpg,stimuli/rcic_base_1_00040_ori.jpg,300,-300,0,0,6084343,1,2023-10-23_13h08.16.264,image_generation_task,2022.2.5,Win32,59.74786401,,,,,,,,left,6.741,0,6,6,39,1,,,,,,
,,,,,,,"Bullshit is defined as any statement constructed without regard to the truth. This is in contrast to a lie, which is constructed with the truth as a reference point.

Bullshitters are people who continuously spread bullshit out into the world. While bullshit is frequently encountered in daily life, little is known about how people mentally visualize what a bullshitter looks like. This study was designed to do that.

The following quotes are examples of bullshit. Each of these is designed to sound profound or inspirational but are actually just jumbles of random words in a correct synactical structure without any semantic meaning:

'Synergistic strategies holistically predominate adaptive potentialities.'

'Thriving companies collaboratively utilize parallel fungibility.'

'In the near future, brave pioneers will use crowdsourcing to rapidly transform communities.'

'Soon, engaged change-makers will use virtual reality to efficiently socialize ideas.'

Press the SPACE BAR to continue to the next page.","You will be asked to classify faces as BULLSHITTERS!

In the next section, please indicate whether you believe the face on the left or the face on the right looks more like a BULLSHITTER.

Please use the LEFT and RIGHT arrow keys to indicate your response.

Press the SPACE BAR when you're ready to begin!",Which image looks most like a BULLSHITTER?,stimuli/rcic_base_1_00222_inv.jpg,stimuli/rcic_base_1_00222_ori.jpg,300,-300,0,0,6084343,1,2023-10-23_13h08.16.264,image_generation_task,2022.2.5,Win32,59.74786401,,,,,,,,left,1.4291,0,7,7,221,1,,,,,,
,,,,,,,"Bullshit is defined as any statement constructed without regard to the truth. This is in contrast to a lie, which is constructed with the truth as a reference point.

Bullshitters are people who continuously spread bullshit out into the world. While bullshit is frequently encountered in daily life, little is known about how people mentally visualize what a bullshitter looks like. This study was designed to do that.

The following quotes are examples of bullshit. Each of these is designed to sound profound or inspirational but are actually just jumbles of random words in a correct synactical structure without any semantic meaning:

'Synergistic strategies holistically predominate adaptive potentialities.'

'Thriving companies collaboratively utilize parallel fungibility.'

'In the near future, brave pioneers will use crowdsourcing to rapidly transform communities.'

'Soon, engaged change-makers will use virtual reality to efficiently socialize ideas.'

Press the SPACE BAR to continue to the next page.","You will be asked to classify faces as BULLSHITTERS!

In the next section, please indicate whether you believe the face on the left or the face on the right looks more like a BULLSHITTER.

Please use the LEFT and RIGHT arrow keys to indicate your response.

Press the SPACE BAR when you're ready to begin!",Which image looks most like a BULLSHITTER?,stimuli/rcic_base_1_00176_inv.jpg,stimuli/rcic_base_1_00176_ori.jpg,300,-300,0,0,6084343,1,2023-10-23_13h08.16.264,image_generation_task,2022.2.5,Win32,59.74786401,,,,,,,,right,0.8082,0,8,8,175,1,,,,,,
,,,,,,,"Bullshit is defined as any statement constructed without regard to the truth. This is in contrast to a lie, which is constructed with the truth as a reference point.

Bullshitters are people who continuously spread bullshit out into the world. While bullshit is frequently encountered in daily life, little is known about how people mentally visualize what a bullshitter looks like. This study was designed to do that.

The following quotes are examples of bullshit. Each of these is designed to sound profound or inspirational but are actually just jumbles of random words in a correct synactical structure without any semantic meaning:

'Synergistic strategies holistically predominate adaptive potentialities.'

'Thriving companies collaboratively utilize parallel fungibility.'

'In the near future, brave pioneers will use crowdsourcing to rapidly transform communities.'

'Soon, engaged change-makers will use virtual reality to efficiently socialize ideas.'

Press the SPACE BAR to continue to the next page.","You will be asked to classify faces as BULLSHITTERS!

In the next section, please indicate whether you believe the face on the left or the face on the right looks more like a BULLSHITTER.

Please use the LEFT and RIGHT arrow keys to indicate your response.

Press the SPACE BAR when you're ready to begin!",Which image looks most like a BULLSHITTER?,stimuli/rcic_base_1_00164_inv.jpg,stimuli/rcic_base_1_00164_ori.jpg,300,-300,0,0,6084343,1,2023-10-23_13h08.16.264,image_generation_task,2022.2.5,Win32,59.74786401,,,,,,,,right,1.1172,0,9,9,163,1,,,,,,
,,,,,,,"Bullshit is defined as any statement constructed without regard to the truth. This is in contrast to a lie, which is constructed with the truth as a reference point.

Bullshitters are people who continuously spread bullshit out into the world. While bullshit is frequently encountered in daily life, little is known about how people mentally visualize what a bullshitter looks like. This study was designed to do that.

The following quotes are examples of bullshit. Each of these is designed to sound profound or inspirational but are actually just jumbles of random words in a correct synactical structure without any semantic meaning:

'Synergistic strategies holistically predominate adaptive potentialities.'

'Thriving companies collaboratively utilize parallel fungibility.'

'In the near future, brave pioneers will use crowdsourcing to rapidly transform communities.'

'Soon, engaged change-makers will use virtual reality to efficiently socialize ideas.'

Press the SPACE BAR to continue to the next page.","You will be asked to classify faces as BULLSHITTERS!

In the next section, please indicate whether you believe the face on the left or the face on the right looks more like a BULLSHITTER.

Please use the LEFT and RIGHT arrow keys to indicate your response.

Press the SPACE BAR when you're ready to begin!",Which image looks most like a BULLSHITTER?,stimuli/rcic_base_1_00094_inv.jpg,stimuli/rcic_base_1_00094_ori.jpg,300,-300,0,0,6084343,1,2023-10-23_13h08.16.264,image_generation_task,2022.2.5,Win32,59.74786401,,,,,,,,right,1.7422,0,10,10,93,1,,,,,,
,,,,,,,"Bullshit is defined as any statement constructed without regard to the truth. This is in contrast to a lie, which is constructed with the truth as a reference point.

Bullshitters are people who continuously spread bullshit out into the world. While bullshit is frequently encountered in daily life, little is known about how people mentally visualize what a bullshitter looks like. This study was designed to do that.

The following quotes are examples of bullshit. Each of these is designed to sound profound or inspirational but are actually just jumbles of random words in a correct synactical structure without any semantic meaning:

'Synergistic strategies holistically predominate adaptive potentialities.'

'Thriving companies collaboratively utilize parallel fungibility.'

'In the near future, brave pioneers will use crowdsourcing to rapidly transform communities.'

'Soon, engaged change-makers will use virtual reality to efficiently socialize ideas.'

Press the SPACE BAR to continue to the next page.","You will be asked to classify faces as BULLSHITTERS!

In the next section, please indicate whether you believe the face on the left or the face on the right looks more like a BULLSHITTER.

Please use the LEFT and RIGHT arrow keys to indicate your response.

Press the SPACE BAR when you're ready to begin!",Which image looks most like a BULLSHITTER?,stimuli/rcic_base_1_00184_inv.jpg,stimuli/rcic_base_1_00184_ori.jpg,300,-300,0,0,6084343,1,2023-10-23_13h08.16.264,image_generation_task,2022.2.5,Win32,59.74786401,,,,,,,,right,1.4164,0,11,11,183,1,,,,,,
,,,,,,,"Bullshit is defined as any statement constructed without regard to the truth. This is in contrast to a lie, which is constructed with the truth as a reference point.

Bullshitters are people who continuously spread bullshit out into the world. While bullshit is frequently encountered in daily life, little is known about how people mentally visualize what a bullshitter looks like. This study was designed to do that.

The following quotes are examples of bullshit. Each of these is designed to sound profound or inspirational but are actually just jumbles of random words in a correct synactical structure without any semantic meaning:

'Synergistic strategies holistically predominate adaptive potentialities.'

'Thriving companies collaboratively utilize parallel fungibility.'

'In the near future, brave pioneers will use crowdsourcing to rapidly transform communities.'

'Soon, engaged change-makers will use virtual reality to efficiently socialize ideas.'

Press the SPACE BAR to continue to the next page.","You will be asked to classify faces as BULLSHITTERS!

In the next section, please indicate whether you believe the face on the left or the face on the right looks more like a BULLSHITTER.

Please use the LEFT and RIGHT arrow keys to indicate your response.

Press the SPACE BAR when you're ready to begin!",Which image looks most like a BULLSHITTER?,stimuli/rcic_base_1_00108_inv.jpg,stimuli/rcic_base_1_00108_ori.jpg,300,-300,0,0,6084343,1,2023-10-23_13h08.16.264,image_generation_task,2022.2.5,Win32,59.74786401,,,,,,,,left,2.7941,0,12,12,107,1,,,,,,
,,,,,,,"Bullshit is defined as any statement constructed without regard to the truth. This is in contrast to a lie, which is constructed with the truth as a reference point.

Bullshitters are people who continuously spread bullshit out into the world. While bullshit is frequently encountered in daily life, little is known about how people mentally visualize what a bullshitter looks like. This study was designed to do that.

The following quotes are examples of bullshit. Each of these is designed to sound profound or inspirational but are actually just jumbles of random words in a correct synactical structure without any semantic meaning:

'Synergistic strategies holistically predominate adaptive potentialities.'

'Thriving companies collaboratively utilize parallel fungibility.'

'In the near future, brave pioneers will use crowdsourcing to rapidly transform communities.'

'Soon, engaged change-makers will use virtual reality to efficiently socialize ideas.'

Press the SPACE BAR to continue to the next page.","You will be asked to classify faces as BULLSHITTERS!

In the next section, please indicate whether you believe the face on the left or the face on the right looks more like a BULLSHITTER.

Please use the LEFT and RIGHT arrow keys to indicate your response.

Press the SPACE BAR when you're ready to begin!",Which image looks most like a BULLSHITTER?,stimuli/rcic_base_1_00233_inv.jpg,stimuli/rcic_base_1_00233_ori.jpg,-300,300,0,0,6084343,1,2023-10-23_13h08.16.264,image_generation_task,2022.2.5,Win32,59.74786401,,,,,,,,right,1.1706,0,13,13,232,1,,,,,,
,,,,,,,"Bullshit is defined as any statement constructed without regard to the truth. This is in contrast to a lie, which is constructed with the truth as a reference point.

Bullshitters are people who continuously spread bullshit out into the world. While bullshit is frequently encountered in daily life, little is known about how people mentally visualize what a bullshitter looks like. This study was designed to do that.

The following quotes are examples of bullshit. Each of these is designed to sound profound or inspirational but are actually just jumbles of random words in a correct synactical structure without any semantic meaning:

'Synergistic strategies holistically predominate adaptive potentialities.'

'Thriving companies collaboratively utilize parallel fungibility.'

'In the near future, brave pioneers will use crowdsourcing to rapidly transform communities.'

'Soon, engaged change-makers will use virtual reality to efficiently socialize ideas.'

Press the SPACE BAR to continue to the next page.","You will be asked to classify faces as BULLSHITTERS!

In the next section, please indicate whether you believe the face on the left or the face on the right looks more like a BULLSHITTER.

Please use the LEFT and RIGHT arrow keys to indicate your response.

Press the SPACE BAR when you're ready to begin!",Which image looks most like a BULLSHITTER?,stimuli/rcic_base_1_00248_inv.jpg,stimuli/rcic_base_1_00248_ori.jpg,300,-300,0,0,6084343,1,2023-10-23_13h08.16.264,image_generation_task,2022.2.5,Win32,59.74786401,,,,,,,,right,5.9326,0,14,14,247,1,,,,,,
,,,,,,,"Bullshit is defined as any statement constructed without regard to the truth. This is in contrast to a lie, which is constructed with the truth as a reference point.

Bullshitters are people who continuously spread bullshit out into the world. While bullshit is frequently encountered in daily life, little is known about how people mentally visualize what a bullshitter looks like. This study was designed to do that.

The following quotes are examples of bullshit. Each of these is designed to sound profound or inspirational but are actually just jumbles of random words in a correct synactical structure without any semantic meaning:

'Synergistic strategies holistically predominate adaptive potentialities.'

'Thriving companies collaboratively utilize parallel fungibility.'

'In the near future, brave pioneers will use crowdsourcing to rapidly transform communities.'

'Soon, engaged change-makers will use virtual reality to efficiently socialize ideas.'

Press the SPACE BAR to continue to the next page.","You will be asked to classify faces as BULLSHITTERS!

In the next section, please indicate whether you believe the face on the left or the face on the right looks more like a BULLSHITTER.

Please use the LEFT and RIGHT arrow keys to indicate your response.

Press the SPACE BAR when you're ready to begin!",Which image looks most like a BULLSHITTER?,stimuli/rcic_base_1_00042_inv.jpg,stimuli/rcic_base_1_00042_ori.jpg,300,-300,0,0,6084343,1,2023-10-23_13h08.16.264,image_generation_task,2022.2.5,Win32,59.74786401,,,,,,,,left,2.6867,0,15,15,41,1,,,,,,
,,,,,,,"Bullshit is defined as any statement constructed without regard to the truth. This is in contrast to a lie, which is constructed with the truth as a reference point.

Bullshitters are people who continuously spread bullshit out into the world. While bullshit is frequently encountered in daily life, little is known about how people mentally visualize what a bullshitter looks like. This study was designed to do that.

The following quotes are examples of bullshit. Each of these is designed to sound profound or inspirational but are actually just jumbles of random words in a correct synactical structure without any semantic meaning:

'Synergistic strategies holistically predominate adaptive potentialities.'

'Thriving companies collaboratively utilize parallel fungibility.'

'In the near future, brave pioneers will use crowdsourcing to rapidly transform communities.'

'Soon, engaged change-makers will use virtual reality to efficiently socialize ideas.'

Press the SPACE BAR to continue to the next page.","You will be asked to classify faces as BULLSHITTERS!

In the next section, please indicate whether you believe the face on the left or the face on the right looks more like a BULLSHITTER.

Please use the LEFT and RIGHT arrow keys to indicate your response.

Press the SPACE BAR when you're ready to begin!",Which image looks most like a BULLSHITTER?,stimuli/rcic_base_1_00286_inv.jpg,stimuli/rcic_base_1_00286_ori.jpg,300,-300,0,0,6084343,1,2023-10-23_13h08.16.264,image_generation_task,2022.2.5,Win32,59.74786401,,,,,,,,right,6.8741,0,16,16,285,1,,,,,,
,,,,,,,"Bullshit is defined as any statement constructed without regard to the truth. This is in contrast to a lie, which is constructed with the truth as a reference point.

Bullshitters are people who continuously spread bullshit out into the world. While bullshit is frequently encountered in daily life, little is known about how people mentally visualize what a bullshitter looks like. This study was designed to do that.

The following quotes are examples of bullshit. Each of these is designed to sound profound or inspirational but are actually just jumbles of random words in a correct synactical structure without any semantic meaning:

'Synergistic strategies holistically predominate adaptive potentialities.'

'Thriving companies collaboratively utilize parallel fungibility.'

'In the near future, brave pioneers will use crowdsourcing to rapidly transform communities.'

'Soon, engaged change-makers will use virtual reality to efficiently socialize ideas.'

Press the SPACE BAR to continue to the next page.","You will be asked to classify faces as BULLSHITTERS!

In the next section, please indicate whether you believe the face on the left or the face on the right looks more like a BULLSHITTER.

Please use the LEFT and RIGHT arrow keys to indicate your response.

Press the SPACE BAR when you're ready to begin!",Which image looks most like a BULLSHITTER?,stimuli/rcic_base_1_00206_inv.jpg,stimuli/rcic_base_1_00206_ori.jpg,300,-300,0,0,6084343,1,2023-10-23_13h08.16.264,image_generation_task,2022.2.5,Win32,59.74786401,,,,,,,,left,1.9068,0,17,17,205,1,,,,,,
,,,,,,,"Bullshit is defined as any statement constructed without regard to the truth. This is in contrast to a lie, which is constructed with the truth as a reference point.

Bullshitters are people who continuously spread bullshit out into the world. While bullshit is frequently encountered in daily life, little is known about how people mentally visualize what a bullshitter looks like. This study was designed to do that.

The following quotes are examples of bullshit. Each of these is designed to sound profound or inspirational but are actually just jumbles of random words in a correct synactical structure without any semantic meaning:

'Synergistic strategies holistically predominate adaptive potentialities.'

'Thriving companies collaboratively utilize parallel fungibility.'

'In the near future, brave pioneers will use crowdsourcing to rapidly transform communities.'

'Soon, engaged change-makers will use virtual reality to efficiently socialize ideas.'

Press the SPACE BAR to continue to the next page.","You will be asked to classify faces as BULLSHITTERS!

In the next section, please indicate whether you believe the face on the left or the face on the right looks more like a BULLSHITTER.

Please use the LEFT and RIGHT arrow keys to indicate your response.

Press the SPACE BAR when you're ready to begin!",Which image looks most like a BULLSHITTER?,stimuli/rcic_base_1_00045_inv.jpg,stimuli/rcic_base_1_00045_ori.jpg,-300,300,0,0,6084343,1,2023-10-23_13h08.16.264,image_generation_task,2022.2.5,Win32,59.74786401,,,,,,,,right,0.8846,0,18,18,44,1,,,,,,
,,,,,,,"Bullshit is defined as any statement constructed without regard to the truth. This is in contrast to a lie, which is constructed with the truth as a reference point.

Bullshitters are people who continuously spread bullshit out into the world. While bullshit is frequently encountered in daily life, little is known about how people mentally visualize what a bullshitter looks like. This study was designed to do that.

The following quotes are examples of bullshit. Each of these is designed to sound profound or inspirational but are actually just jumbles of random words in a correct synactical structure without any semantic meaning:

'Synergistic strategies holistically predominate adaptive potentialities.'

'Thriving companies collaboratively utilize parallel fungibility.'

'In the near future, brave pioneers will use crowdsourcing to rapidly transform communities.'

'Soon, engaged change-makers will use virtual reality to efficiently socialize ideas.'

Press the SPACE BAR to continue to the next page.","You will be asked to classify faces as BULLSHITTERS!

In the next section, please indicate whether you believe the face on the left or the face on the right looks more like a BULLSHITTER.

Please use the LEFT and RIGHT arrow keys to indicate your response.

Press the SPACE BAR when you're ready to begin!",Which image looks most like a BULLSHITTER?,stimuli/rcic_base_1_00111_inv.jpg,stimuli/rcic_base_1_00111_ori.jpg,-300,300,0,0,6084343,1,2023-10-23_13h08.16.264,image_generation_task,2022.2.5,Win32,59.74786401,,,,,,,,right,1.1128,0,19,19,110,1,,,,,,
,,,,,,,"Bullshit is defined as any statement constructed without regard to the truth. This is in contrast to a lie, which is constructed with the truth as a reference point.

Bullshitters are people who continuously spread bullshit out into the world. While bullshit is frequently encountered in daily life, little is known about how people mentally visualize what a bullshitter looks like. This study was designed to do that.

The following quotes are examples of bullshit. Each of these is designed to sound profound or inspirational but are actually just jumbles of random words in a correct synactical structure without any semantic meaning:

'Synergistic strategies holistically predominate adaptive potentialities.'

'Thriving companies collaboratively utilize parallel fungibility.'

'In the near future, brave pioneers will use crowdsourcing to rapidly transform communities.'

'Soon, engaged change-makers will use virtual reality to efficiently socialize ideas.'

Press the SPACE BAR to continue to the next page.","You will be asked to classify faces as BULLSHITTERS!

In the next section, please indicate whether you believe the face on the left or the face on the right looks more like a BULLSHITTER.

Please use the LEFT and RIGHT arrow keys to indicate your response.

Press the SPACE BAR when you're ready to begin!",Which image looks most like a BULLSHITTER?,stimuli/rcic_base_1_00061_inv.jpg,stimuli/rcic_base_1_00061_ori.jpg,-300,300,0,0,6084343,1,2023-10-23_13h08.16.264,image_generation_task,2022.2.5,Win32,59.74786401,,,,,,,,left,1.4116,0,20,20,60,1,,,,,,
,,,,,,,"Bullshit is defined as any statement constructed without regard to the truth. This is in contrast to a lie, which is constructed with the truth as a reference point.

Bullshitters are people who continuously spread bullshit out into the world. While bullshit is frequently encountered in daily life, little is known about how people mentally visualize what a bullshitter looks like. This study was designed to do that.

The following quotes are examples of bullshit. Each of these is designed to sound profound or inspirational but are actually just jumbles of random words in a correct synactical structure without any semantic meaning:

'Synergistic strategies holistically predominate adaptive potentialities.'

'Thriving companies collaboratively utilize parallel fungibility.'

'In the near future, brave pioneers will use crowdsourcing to rapidly transform communities.'

'Soon, engaged change-makers will use virtual reality to efficiently socialize ideas.'

Press the SPACE BAR to continue to the next page.","You will be asked to classify faces as BULLSHITTERS!

In the next section, please indicate whether you believe the face on the left or the face on the right looks more like a BULLSHITTER.

Please use the LEFT and RIGHT arrow keys to indicate your response.

Press the SPACE BAR when you're ready to begin!",Which image looks most like a BULLSHITTER?,stimuli/rcic_base_1_00159_inv.jpg,stimuli/rcic_base_1_00159_ori.jpg,-300,300,0,0,6084343,1,2023-10-23_13h08.16.264,image_generation_task,2022.2.5,Win32,59.74786401,,,,,,,,left,1.1806,0,21,21,158,1,,,,,,
,,,,,,,"Bullshit is defined as any statement constructed without regard to the truth. This is in contrast to a lie, which is constructed with the truth as a reference point.

Bullshitters are people who continuously spread bullshit out into the world. While bullshit is frequently encountered in daily life, little is known about how people mentally visualize what a bullshitter looks like. This study was designed to do that.

The following quotes are examples of bullshit. Each of these is designed to sound profound or inspirational but are actually just jumbles of random words in a correct synactical structure without any semantic meaning:

'Synergistic strategies holistically predominate adaptive potentialities.'

'Thriving companies collaboratively utilize parallel fungibility.'

'In the near future, brave pioneers will use crowdsourcing to rapidly transform communities.'

'Soon, engaged change-makers will use virtual reality to efficiently socialize ideas.'

Press the SPACE BAR to continue to the next page.","You will be asked to classify faces as BULLSHITTERS!

In the next section, please indicate whether you believe the face on the left or the face on the right looks more like a BULLSHITTER.

Please use the LEFT and RIGHT arrow keys to indicate your response.

Press the SPACE BAR when you're ready to begin!",Which image looks most like a BULLSHITTER?,stimuli/rcic_base_1_00060_inv.jpg,stimuli/rcic_base_1_00060_ori.jpg,300,-300,0,0,6084343,1,2023-10-23_13h08.16.264,image_generation_task,2022.2.5,Win32,59.74786401,,,,,,,,left,2.8208,0,22,22,59,1,,,,,,
,,,,,,,"Bullshit is defined as any statement constructed without regard to the truth. This is in contrast to a lie, which is constructed with the truth as a reference point.

Bullshitters are people who continuously spread bullshit out into the world. While bullshit is frequently encountered in daily life, little is known about how people mentally visualize what a bullshitter looks like. This study was designed to do that.

The following quotes are examples of bullshit. Each of these is designed to sound profound or inspirational but are actually just jumbles of random words in a correct synactical structure without any semantic meaning:

'Synergistic strategies holistically predominate adaptive potentialities.'

'Thriving companies collaboratively utilize parallel fungibility.'

'In the near future, brave pioneers will use crowdsourcing to rapidly transform communities.'

'Soon, engaged change-makers will use virtual reality to efficiently socialize ideas.'

Press the SPACE BAR to continue to the next page.","You will be asked to classify faces as BULLSHITTERS!

In the next section, please indicate whether you believe the face on the left or the face on the right looks more like a BULLSHITTER.

Please use the LEFT and RIGHT arrow keys to indicate your response.

Press the SPACE BAR when you're ready to begin!",Which image looks most like a BULLSHITTER?,stimuli/rcic_base_1_00293_inv.jpg,stimuli/rcic_base_1_00293_ori.jpg,-300,300,0,0,6084343,1,2023-10-23_13h08.16.264,image_generation_task,2022.2.5,Win32,59.74786401,,,,,,,,right,1.6407,0,23,23,292,1,,,,,,
,,,,,,,"Bullshit is defined as any statement constructed without regard to the truth. This is in contrast to a lie, which is constructed with the truth as a reference point.

Bullshitters are people who continuously spread bullshit out into the world. While bullshit is frequently encountered in daily life, little is known about how people mentally visualize what a bullshitter looks like. This study was designed to do that.

The following quotes are examples of bullshit. Each of these is designed to sound profound or inspirational but are actually just jumbles of random words in a correct synactical structure without any semantic meaning:

'Synergistic strategies holistically predominate adaptive potentialities.'

'Thriving companies collaboratively utilize parallel fungibility.'

'In the near future, brave pioneers will use crowdsourcing to rapidly transform communities.'

'Soon, engaged change-makers will use virtual reality to efficiently socialize ideas.'

Press the SPACE BAR to continue to the next page.","You will be asked to classify faces as BULLSHITTERS!

In the next section, please indicate whether you believe the face on the left or the face on the right looks more like a BULLSHITTER.

Please use the LEFT and RIGHT arrow keys to indicate your response.

Press the SPACE BAR when you're ready to begin!",Which image looks most like a BULLSHITTER?,stimuli/rcic_base_1_00246_inv.jpg,stimuli/rcic_base_1_00246_ori.jpg,300,-300,0,0,6084343,1,2023-10-23_13h08.16.264,image_generation_task,2022.2.5,Win32,59.74786401,,,,,,,,left,1.3131,0,24,24,245,1,,,,,,
,,,,,,,"Bullshit is defined as any statement constructed without regard to the truth. This is in contrast to a lie, which is constructed with the truth as a reference point.

Bullshitters are people who continuously spread bullshit out into the world. While bullshit is frequently encountered in daily life, little is known about how people mentally visualize what a bullshitter looks like. This study was designed to do that.

The following quotes are examples of bullshit. Each of these is designed to sound profound or inspirational but are actually just jumbles of random words in a correct synactical structure without any semantic meaning:

'Synergistic strategies holistically predominate adaptive potentialities.'

'Thriving companies collaboratively utilize parallel fungibility.'

'In the near future, brave pioneers will use crowdsourcing to rapidly transform communities.'

'Soon, engaged change-makers will use virtual reality to efficiently socialize ideas.'

Press the SPACE BAR to continue to the next page.","You will be asked to classify faces as BULLSHITTERS!

In the next section, please indicate whether you believe the face on the left or the face on the right looks more like a BULLSHITTER.

Please use the LEFT and RIGHT arrow keys to indicate your response.

Press the SPACE BAR when you're ready to begin!",Which image looks most like a BULLSHITTER?,stimuli/rcic_base_1_00018_inv.jpg,stimuli/rcic_base_1_00018_ori.jpg,300,-300,0,0,6084343,1,2023-10-23_13h08.16.264,image_generation_task,2022.2.5,Win32,59.74786401,,,,,,,,left,2.7846,0,25,25,17,1,,,,,,
,,,,,,,"Bullshit is defined as any statement constructed without regard to the truth. This is in contrast to a lie, which is constructed with the truth as a reference point.

Bullshitters are people who continuously spread bullshit out into the world. While bullshit is frequently encountered in daily life, little is known about how people mentally visualize what a bullshitter looks like. This study was designed to do that.

The following quotes are examples of bullshit. Each of these is designed to sound profound or inspirational but are actually just jumbles of random words in a correct synactical structure without any semantic meaning:

'Synergistic strategies holistically predominate adaptive potentialities.'

'Thriving companies collaboratively utilize parallel fungibility.'

'In the near future, brave pioneers will use crowdsourcing to rapidly transform communities.'

'Soon, engaged change-makers will use virtual reality to efficiently socialize ideas.'

Press the SPACE BAR to continue to the next page.","You will be asked to classify faces as BULLSHITTERS!

In the next section, please indicate whether you believe the face on the left or the face on the right looks more like a BULLSHITTER.

Please use the LEFT and RIGHT arrow keys to indicate your response.

Press the SPACE BAR when you're ready to begin!",Which image looks most like a BULLSHITTER?,stimuli/rcic_base_1_00255_inv.jpg,stimuli/rcic_base_1_00255_ori.jpg,-300,300,0,0,6084343,1,2023-10-23_13h08.16.264,image_generation_task,2022.2.5,Win32,59.74786401,,,,,,,,left,1.2242,0,26,26,254,1,,,,,,
,,,,,,,"Bullshit is defined as any statement constructed without regard to the truth. This is in contrast to a lie, which is constructed with the truth as a reference point.

Bullshitters are people who continuously spread bullshit out into the world. While bullshit is frequently encountered in daily life, little is known about how people mentally visualize what a bullshitter looks like. This study was designed to do that.

The following quotes are examples of bullshit. Each of these is designed to sound profound or inspirational but are actually just jumbles of random words in a correct synactical structure without any semantic meaning:

'Synergistic strategies holistically predominate adaptive potentialities.'

'Thriving companies collaboratively utilize parallel fungibility.'

'In the near future, brave pioneers will use crowdsourcing to rapidly transform communities.'

'Soon, engaged change-makers will use virtual reality to efficiently socialize ideas.'

Press the SPACE BAR to continue to the next page.","You will be asked to classify faces as BULLSHITTERS!

In the next section, please indicate whether you believe the face on the left or the face on the right looks more like a BULLSHITTER.

Please use the LEFT and RIGHT arrow keys to indicate your response.

Press the SPACE BAR when you're ready to begin!",Which image looks most like a BULLSHITTER?,stimuli/rcic_base_1_00003_inv.jpg,stimuli/rcic_base_1_00003_ori.jpg,-300,300,0,0,6084343,1,2023-10-23_13h08.16.264,image_generation_task,2022.2.5,Win32,59.74786401,,,,,,,,left,2.345,0,27,27,2,1,,,,,,
,,,,,,,"Bullshit is defined as any statement constructed without regard to the truth. This is in contrast to a lie, which is constructed with the truth as a reference point.

Bullshitters are people who continuously spread bullshit out into the world. While bullshit is frequently encountered in daily life, little is known about how people mentally visualize what a bullshitter looks like. This study was designed to do that.

The following quotes are examples of bullshit. Each of these is designed to sound profound or inspirational but are actually just jumbles of random words in a correct synactical structure without any semantic meaning:

'Synergistic strategies holistically predominate adaptive potentialities.'

'Thriving companies collaboratively utilize parallel fungibility.'

'In the near future, brave pioneers will use crowdsourcing to rapidly transform communities.'

'Soon, engaged change-makers will use virtual reality to efficiently socialize ideas.'

Press the SPACE BAR to continue to the next page.","You will be asked to classify faces as BULLSHITTERS!

In the next section, please indicate whether you believe the face on the left or the face on the right looks more like a BULLSHITTER.

Please use the LEFT and RIGHT arrow keys to indicate your response.

Press the SPACE BAR when you're ready to begin!",Which image looks most like a BULLSHITTER?,stimuli/rcic_base_1_00050_inv.jpg,stimuli/rcic_base_1_00050_ori.jpg,300,-300,0,0,6084343,1,2023-10-23_13h08.16.264,image_generation_task,2022.2.5,Win32,59.74786401,,,,,,,,right,1.334,0,28,28,49,1,,,,,,
,,,,,,,"Bullshit is defined as any statement constructed without regard to the truth. This is in contrast to a lie, which is constructed with the truth as a reference point.

Bullshitters are people who continuously spread bullshit out into the world. While bullshit is frequently encountered in daily life, little is known about how people mentally visualize what a bullshitter looks like. This study was designed to do that.

The following quotes are examples of bullshit. Each of these is designed to sound profound or inspirational but are actually just jumbles of random words in a correct synactical structure without any semantic meaning:

'Synergistic strategies holistically predominate adaptive potentialities.'

'Thriving companies collaboratively utilize parallel fungibility.'

'In the near future, brave pioneers will use crowdsourcing to rapidly transform communities.'

'Soon, engaged change-makers will use virtual reality to efficiently socialize ideas.'

Press the SPACE BAR to continue to the next page.","You will be asked to classify faces as BULLSHITTERS!

In the next section, please indicate whether you believe the face on the left or the face on the right looks more like a BULLSHITTER.

Please use the LEFT and RIGHT arrow keys to indicate your response.

Press the SPACE BAR when you're ready to begin!",Which image looks most like a BULLSHITTER?,stimuli/rcic_base_1_00015_inv.jpg,stimuli/rcic_base_1_00015_ori.jpg,-300,300,0,0,6084343,1,2023-10-23_13h08.16.264,image_generation_task,2022.2.5,Win32,59.74786401,,,,,,,,left,4.0475,0,29,29,14,1,,,,,,
,,,,,,,"Bullshit is defined as any statement constructed without regard to the truth. This is in contrast to a lie, which is constructed with the truth as a reference point.

Bullshitters are people who continuously spread bullshit out into the world. While bullshit is frequently encountered in daily life, little is known about how people mentally visualize what a bullshitter looks like. This study was designed to do that.

The following quotes are examples of bullshit. Each of these is designed to sound profound or inspirational but are actually just jumbles of random words in a correct synactical structure without any semantic meaning:

'Synergistic strategies holistically predominate adaptive potentialities.'

'Thriving companies collaboratively utilize parallel fungibility.'

'In the near future, brave pioneers will use crowdsourcing to rapidly transform communities.'

'Soon, engaged change-makers will use virtual reality to efficiently socialize ideas.'

Press the SPACE BAR to continue to the next page.","You will be asked to classify faces as BULLSHITTERS!

In the next section, please indicate whether you believe the face on the left or the face on the right looks more like a BULLSHITTER.

Please use the LEFT and RIGHT arrow keys to indicate your response.

Press the SPACE BAR when you're ready to begin!",Which image looks most like a BULLSHITTER?,stimuli/rcic_base_1_00202_inv.jpg,stimuli/rcic_base_1_00202_ori.jpg,300,-300,0,0,6084343,1,2023-10-23_13h08.16.264,image_generation_task,2022.2.5,Win32,59.74786401,,,,,,,,right,1.4579,0,30,30,201,1,,,,,,
,,,,,,,"Bullshit is defined as any statement constructed without regard to the truth. This is in contrast to a lie, which is constructed with the truth as a reference point.

Bullshitters are people who continuously spread bullshit out into the world. While bullshit is frequently encountered in daily life, little is known about how people mentally visualize what a bullshitter looks like. This study was designed to do that.

The following quotes are examples of bullshit. Each of these is designed to sound profound or inspirational but are actually just jumbles of random words in a correct synactical structure without any semantic meaning:

'Synergistic strategies holistically predominate adaptive potentialities.'

'Thriving companies collaboratively utilize parallel fungibility.'

'In the near future, brave pioneers will use crowdsourcing to rapidly transform communities.'

'Soon, engaged change-makers will use virtual reality to efficiently socialize ideas.'

Press the SPACE BAR to continue to the next page.","You will be asked to classify faces as BULLSHITTERS!

In the next section, please indicate whether you believe the face on the left or the face on the right looks more like a BULLSHITTER.

Please use the LEFT and RIGHT arrow keys to indicate your response.

Press the SPACE BAR when you're ready to begin!",Which image looks most like a BULLSHITTER?,stimuli/rcic_base_1_00137_inv.jpg,stimuli/rcic_base_1_00137_ori.jpg,-300,300,0,0,6084343,1,2023-10-23_13h08.16.264,image_generation_task,2022.2.5,Win32,59.74786401,,,,,,,,left,1.032,0,31,31,136,1,,,,,,
,,,,,,,"Bullshit is defined as any statement constructed without regard to the truth. This is in contrast to a lie, which is constructed with the truth as a reference point.

Bullshitters are people who continuously spread bullshit out into the world. While bullshit is frequently encountered in daily life, little is known about how people mentally visualize what a bullshitter looks like. This study was designed to do that.

The following quotes are examples of bullshit. Each of these is designed to sound profound or inspirational but are actually just jumbles of random words in a correct synactical structure without any semantic meaning:

'Synergistic strategies holistically predominate adaptive potentialities.'

'Thriving companies collaboratively utilize parallel fungibility.'

'In the near future, brave pioneers will use crowdsourcing to rapidly transform communities.'

'Soon, engaged change-makers will use virtual reality to efficiently socialize ideas.'

Press the SPACE BAR to continue to the next page.","You will be asked to classify faces as BULLSHITTERS!

In the next section, please indicate whether you believe the face on the left or the face on the right looks more like a BULLSHITTER.

Please use the LEFT and RIGHT arrow keys to indicate your response.

Press the SPACE BAR when you're ready to begin!",Which image looks most like a BULLSHITTER?,stimuli/rcic_base_1_00092_inv.jpg,stimuli/rcic_base_1_00092_ori.jpg,300,-300,0,0,6084343,1,2023-10-23_13h08.16.264,image_generation_task,2022.2.5,Win32,59.74786401,,,,,,,,right,1.8242,0,32,32,91,1,,,,,,
,,,,,,,"Bullshit is defined as any statement constructed without regard to the truth. This is in contrast to a lie, which is constructed with the truth as a reference point.

Bullshitters are people who continuously spread bullshit out into the world. While bullshit is frequently encountered in daily life, little is known about how people mentally visualize what a bullshitter looks like. This study was designed to do that.

The following quotes are examples of bullshit. Each of these is designed to sound profound or inspirational but are actually just jumbles of random words in a correct synactical structure without any semantic meaning:

'Synergistic strategies holistically predominate adaptive potentialities.'

'Thriving companies collaboratively utilize parallel fungibility.'

'In the near future, brave pioneers will use crowdsourcing to rapidly transform communities.'

'Soon, engaged change-makers will use virtual reality to efficiently socialize ideas.'

Press the SPACE BAR to continue to the next page.","You will be asked to classify faces as BULLSHITTERS!

In the next section, please indicate whether you believe the face on the left or the face on the right looks more like a BULLSHITTER.

Please use the LEFT and RIGHT arrow keys to indicate your response.

Press the SPACE BAR when you're ready to begin!",Which image looks most like a BULLSHITTER?,stimuli/rcic_base_1_00161_inv.jpg,stimuli/rcic_base_1_00161_ori.jpg,-300,300,0,0,6084343,1,2023-10-23_13h08.16.264,image_generation_task,2022.2.5,Win32,59.74786401,,,,,,,,left,0.8914,0,33,33,160,1,,,,,,
,,,,,,,"Bullshit is defined as any statement constructed without regard to the truth. This is in contrast to a lie, which is constructed with the truth as a reference point.

Bullshitters are people who continuously spread bullshit out into the world. While bullshit is frequently encountered in daily life, little is known about how people mentally visualize what a bullshitter looks like. This study was designed to do that.

The following quotes are examples of bullshit. Each of these is designed to sound profound or inspirational but are actually just jumbles of random words in a correct synactical structure without any semantic meaning:

'Synergistic strategies holistically predominate adaptive potentialities.'

'Thriving companies collaboratively utilize parallel fungibility.'

'In the near future, brave pioneers will use crowdsourcing to rapidly transform communities.'

'Soon, engaged change-makers will use virtual reality to efficiently socialize ideas.'

Press the SPACE BAR to continue to the next page.","You will be asked to classify faces as BULLSHITTERS!

In the next section, please indicate whether you believe the face on the left or the face on the right looks more like a BULLSHITTER.

Please use the LEFT and RIGHT arrow keys to indicate your response.

Press the SPACE BAR when you're ready to begin!",Which image looks most like a BULLSHITTER?,stimuli/rcic_base_1_00087_inv.jpg,stimuli/rcic_base_1_00087_ori.jpg,-300,300,0,0,6084343,1,2023-10-23_13h08.16.264,image_generation_task,2022.2.5,Win32,59.74786401,,,,,,,,right,2.1355,0,34,34,86,1,,,,,,
,,,,,,,"Bullshit is defined as any statement constructed without regard to the truth. This is in contrast to a lie, which is constructed with the truth as a reference point.

Bullshitters are people who continuously spread bullshit out into the world. While bullshit is frequently encountered in daily life, little is known about how people mentally visualize what a bullshitter looks like. This study was designed to do that.

The following quotes are examples of bullshit. Each of these is designed to sound profound or inspirational but are actually just jumbles of random words in a correct synactical structure without any semantic meaning:

'Synergistic strategies holistically predominate adaptive potentialities.'

'Thriving companies collaboratively utilize parallel fungibility.'

'In the near future, brave pioneers will use crowdsourcing to rapidly transform communities.'

'Soon, engaged change-makers will use virtual reality to efficiently socialize ideas.'

Press the SPACE BAR to continue to the next page.","You will be asked to classify faces as BULLSHITTERS!

In the next section, please indicate whether you believe the face on the left or the face on the right looks more like a BULLSHITTER.

Please use the LEFT and RIGHT arrow keys to indicate your response.

Press the SPACE BAR when you're ready to begin!",Which image looks most like a BULLSHITTER?,stimuli/rcic_base_1_00043_inv.jpg,stimuli/rcic_base_1_00043_ori.jpg,-300,300,0,0,6084343,1,2023-10-23_13h08.16.264,image_generation_task,2022.2.5,Win32,59.74786401,,,,,,,,left,1.469,0,35,35,42,1,,,,,,
,,,,,,,"Bullshit is defined as any statement constructed without regard to the truth. This is in contrast to a lie, which is constructed with the truth as a reference point.

Bullshitters are people who continuously spread bullshit out into the world. While bullshit is frequently encountered in daily life, little is known about how people mentally visualize what a bullshitter looks like. This study was designed to do that.

The following quotes are examples of bullshit. Each of these is designed to sound profound or inspirational but are actually just jumbles of random words in a correct synactical structure without any semantic meaning:

'Synergistic strategies holistically predominate adaptive potentialities.'

'Thriving companies collaboratively utilize parallel fungibility.'

'In the near future, brave pioneers will use crowdsourcing to rapidly transform communities.'

'Soon, engaged change-makers will use virtual reality to efficiently socialize ideas.'

Press the SPACE BAR to continue to the next page.","You will be asked to classify faces as BULLSHITTERS!

In the next section, please indicate whether you believe the face on the left or the face on the right looks more like a BULLSHITTER.

Please use the LEFT and RIGHT arrow keys to indicate your response.

Press the SPACE BAR when you're ready to begin!",Which image looks most like a BULLSHITTER?,stimuli/rcic_base_1_00269_inv.jpg,stimuli/rcic_base_1_00269_ori.jpg,-300,300,0,0,6084343,1,2023-10-23_13h08.16.264,image_generation_task,2022.2.5,Win32,59.74786401,,,,,,,,right,0.7304,0,36,36,268,1,,,,,,
,,,,,,,"Bullshit is defined as any statement constructed without regard to the truth. This is in contrast to a lie, which is constructed with the truth as a reference point.

Bullshitters are people who continuously spread bullshit out into the world. While bullshit is frequently encountered in daily life, little is known about how people mentally visualize what a bullshitter looks like. This study was designed to do that.

The following quotes are examples of bullshit. Each of these is designed to sound profound or inspirational but are actually just jumbles of random words in a correct synactical structure without any semantic meaning:

'Synergistic strategies holistically predominate adaptive potentialities.'

'Thriving companies collaboratively utilize parallel fungibility.'

'In the near future, brave pioneers will use crowdsourcing to rapidly transform communities.'

'Soon, engaged change-makers will use virtual reality to efficiently socialize ideas.'

Press the SPACE BAR to continue to the next page.","You will be asked to classify faces as BULLSHITTERS!

In the next section, please indicate whether you believe the face on the left or the face on the right looks more like a BULLSHITTER.

Please use the LEFT and RIGHT arrow keys to indicate your response.

Press the SPACE BAR when you're ready to begin!",Which image looks most like a BULLSHITTER?,stimuli/rcic_base_1_00090_inv.jpg,stimuli/rcic_base_1_00090_ori.jpg,300,-300,0,0,6084343,1,2023-10-23_13h08.16.264,image_generation_task,2022.2.5,Win32,59.74786401,,,,,,,,left,1.2262,0,37,37,89,1,,,,,,
,,,,,,,"Bullshit is defined as any statement constructed without regard to the truth. This is in contrast to a lie, which is constructed with the truth as a reference point.

Bullshitters are people who continuously spread bullshit out into the world. While bullshit is frequently encountered in daily life, little is known about how people mentally visualize what a bullshitter looks like. This study was designed to do that.

The following quotes are examples of bullshit. Each of these is designed to sound profound or inspirational but are actually just jumbles of random words in a correct synactical structure without any semantic meaning:

'Synergistic strategies holistically predominate adaptive potentialities.'

'Thriving companies collaboratively utilize parallel fungibility.'

'In the near future, brave pioneers will use crowdsourcing to rapidly transform communities.'

'Soon, engaged change-makers will use virtual reality to efficiently socialize ideas.'

Press the SPACE BAR to continue to the next page.","You will be asked to classify faces as BULLSHITTERS!

In the next section, please indicate whether you believe the face on the left or the face on the right looks more like a BULLSHITTER.

Please use the LEFT and RIGHT arrow keys to indicate your response.

Press the SPACE BAR when you're ready to begin!",Which image looks most like a BULLSHITTER?,stimuli/rcic_base_1_00067_inv.jpg,stimuli/rcic_base_1_00067_ori.jpg,-300,300,0,0,6084343,1,2023-10-23_13h08.16.264,image_generation_task,2022.2.5,Win32,59.74786401,,,,,,,,right,1.6145,0,38,38,66,1,,,,,,
,,,,,,,"Bullshit is defined as any statement constructed without regard to the truth. This is in contrast to a lie, which is constructed with the truth as a reference point.

Bullshitters are people who continuously spread bullshit out into the world. While bullshit is frequently encountered in daily life, little is known about how people mentally visualize what a bullshitter looks like. This study was designed to do that.

The following quotes are examples of bullshit. Each of these is designed to sound profound or inspirational but are actually just jumbles of random words in a correct synactical structure without any semantic meaning:

'Synergistic strategies holistically predominate adaptive potentialities.'

'Thriving companies collaboratively utilize parallel fungibility.'

'In the near future, brave pioneers will use crowdsourcing to rapidly transform communities.'

'Soon, engaged change-makers will use virtual reality to efficiently socialize ideas.'

Press the SPACE BAR to continue to the next page.","You will be asked to classify faces as BULLSHITTERS!

In the next section, please indicate whether you believe the face on the left or the face on the right looks more like a BULLSHITTER.

Please use the LEFT and RIGHT arrow keys to indicate your response.

Press the SPACE BAR when you're ready to begin!",Which image looks most like a BULLSHITTER?,stimuli/rcic_base_1_00209_inv.jpg,stimuli/rcic_base_1_00209_ori.jpg,-300,300,0,0,6084343,1,2023-10-23_13h08.16.264,image_generation_task,2022.2.5,Win32,59.74786401,,,,,,,,right,0.9752,0,39,39,208,1,,,,,,
,,,,,,,"Bullshit is defined as any statement constructed without regard to the truth. This is in contrast to a lie, which is constructed with the truth as a reference point.

Bullshitters are people who continuously spread bullshit out into the world. While bullshit is frequently encountered in daily life, little is known about how people mentally visualize what a bullshitter looks like. This study was designed to do that.

The following quotes are examples of bullshit. Each of these is designed to sound profound or inspirational but are actually just jumbles of random words in a correct synactical structure without any semantic meaning:

'Synergistic strategies holistically predominate adaptive potentialities.'

'Thriving companies collaboratively utilize parallel fungibility.'

'In the near future, brave pioneers will use crowdsourcing to rapidly transform communities.'

'Soon, engaged change-makers will use virtual reality to efficiently socialize ideas.'

Press the SPACE BAR to continue to the next page.","You will be asked to classify faces as BULLSHITTERS!

In the next section, please indicate whether you believe the face on the left or the face on the right looks more like a BULLSHITTER.

Please use the LEFT and RIGHT arrow keys to indicate your response.

Press the SPACE BAR when you're ready to begin!",Which image looks most like a BULLSHITTER?,stimuli/rcic_base_1_00265_inv.jpg,stimuli/rcic_base_1_00265_ori.jpg,-300,300,0,0,6084343,1,2023-10-23_13h08.16.264,image_generation_task,2022.2.5,Win32,59.74786401,,,,,,,,left,1.2573,0,40,40,264,1,,,,,,
,,,,,,,"Bullshit is defined as any statement constructed without regard to the truth. This is in contrast to a lie, which is constructed with the truth as a reference point.

Bullshitters are people who continuously spread bullshit out into the world. While bullshit is frequently encountered in daily life, little is known about how people mentally visualize what a bullshitter looks like. This study was designed to do that.

The following quotes are examples of bullshit. Each of these is designed to sound profound or inspirational but are actually just jumbles of random words in a correct synactical structure without any semantic meaning:

'Synergistic strategies holistically predominate adaptive potentialities.'

'Thriving companies collaboratively utilize parallel fungibility.'

'In the near future, brave pioneers will use crowdsourcing to rapidly transform communities.'

'Soon, engaged change-makers will use virtual reality to efficiently socialize ideas.'

Press the SPACE BAR to continue to the next page.","You will be asked to classify faces as BULLSHITTERS!

In the next section, please indicate whether you believe the face on the left or the face on the right looks more like a BULLSHITTER.

Please use the LEFT and RIGHT arrow keys to indicate your response.

Press the SPACE BAR when you're ready to begin!",Which image looks most like a BULLSHITTER?,stimuli/rcic_base_1_00279_inv.jpg,stimuli/rcic_base_1_00279_ori.jpg,-300,300,0,0,6084343,1,2023-10-23_13h08.16.264,image_generation_task,2022.2.5,Win32,59.74786401,,,,,,,,left,1.6925,0,41,41,278,1,,,,,,
,,,,,,,"Bullshit is defined as any statement constructed without regard to the truth. This is in contrast to a lie, which is constructed with the truth as a reference point.

Bullshitters are people who continuously spread bullshit out into the world. While bullshit is frequently encountered in daily life, little is known about how people mentally visualize what a bullshitter looks like. This study was designed to do that.

The following quotes are examples of bullshit. Each of these is designed to sound profound or inspirational but are actually just jumbles of random words in a correct synactical structure without any semantic meaning:

'Synergistic strategies holistically predominate adaptive potentialities.'

'Thriving companies collaboratively utilize parallel fungibility.'

'In the near future, brave pioneers will use crowdsourcing to rapidly transform communities.'

'Soon, engaged change-makers will use virtual reality to efficiently socialize ideas.'

Press the SPACE BAR to continue to the next page.","You will be asked to classify faces as BULLSHITTERS!

In the next section, please indicate whether you believe the face on the left or the face on the right looks more like a BULLSHITTER.

Please use the LEFT and RIGHT arrow keys to indicate your response.

Press the SPACE BAR when you're ready to begin!",Which image looks most like a BULLSHITTER?,stimuli/rcic_base_1_00109_inv.jpg,stimuli/rcic_base_1_00109_ori.jpg,-300,300,0,0,6084343,1,2023-10-23_13h08.16.264,image_generation_task,2022.2.5,Win32,59.74786401,,,,,,,,left,1.6331,0,42,42,108,1,,,,,,
,,,,,,,"Bullshit is defined as any statement constructed without regard to the truth. This is in contrast to a lie, which is constructed with the truth as a reference point.

Bullshitters are people who continuously spread bullshit out into the world. While bullshit is frequently encountered in daily life, little is known about how people mentally visualize what a bullshitter looks like. This study was designed to do that.

The following quotes are examples of bullshit. Each of these is designed to sound profound or inspirational but are actually just jumbles of random words in a correct synactical structure without any semantic meaning:

'Synergistic strategies holistically predominate adaptive potentialities.'

'Thriving companies collaboratively utilize parallel fungibility.'

'In the near future, brave pioneers will use crowdsourcing to rapidly transform communities.'

'Soon, engaged change-makers will use virtual reality to efficiently socialize ideas.'

Press the SPACE BAR to continue to the next page.","You will be asked to classify faces as BULLSHITTERS!

In the next section, please indicate whether you believe the face on the left or the face on the right looks more like a BULLSHITTER.

Please use the LEFT and RIGHT arrow keys to indicate your response.

Press the SPACE BAR when you're ready to begin!",Which image looks most like a BULLSHITTER?,stimuli/rcic_base_1_00236_inv.jpg,stimuli/rcic_base_1_00236_ori.jpg,300,-300,0,0,6084343,1,2023-10-23_13h08.16.264,image_generation_task,2022.2.5,Win32,59.74786401,,,,,,,,left,1.2967,0,43,43,235,1,,,,,,
,,,,,,,"Bullshit is defined as any statement constructed without regard to the truth. This is in contrast to a lie, which is constructed with the truth as a reference point.

Bullshitters are people who continuously spread bullshit out into the world. While bullshit is frequently encountered in daily life, little is known about how people mentally visualize what a bullshitter looks like. This study was designed to do that.

The following quotes are examples of bullshit. Each of these is designed to sound profound or inspirational but are actually just jumbles of random words in a correct synactical structure without any semantic meaning:

'Synergistic strategies holistically predominate adaptive potentialities.'

'Thriving companies collaboratively utilize parallel fungibility.'

'In the near future, brave pioneers will use crowdsourcing to rapidly transform communities.'

'Soon, engaged change-makers will use virtual reality to efficiently socialize ideas.'

Press the SPACE BAR to continue to the next page.","You will be asked to classify faces as BULLSHITTERS!

In the next section, please indicate whether you believe the face on the left or the face on the right looks more like a BULLSHITTER.

Please use the LEFT and RIGHT arrow keys to indicate your response.

Press the SPACE BAR when you're ready to begin!",Which image looks most like a BULLSHITTER?,stimuli/rcic_base_1_00155_inv.jpg,stimuli/rcic_base_1_00155_ori.jpg,-300,300,0,0,6084343,1,2023-10-23_13h08.16.264,image_generation_task,2022.2.5,Win32,59.74786401,,,,,,,,left,1.2848,0,44,44,154,1,,,,,,
,,,,,,,"Bullshit is defined as any statement constructed without regard to the truth. This is in contrast to a lie, which is constructed with the truth as a reference point.

Bullshitters are people who continuously spread bullshit out into the world. While bullshit is frequently encountered in daily life, little is known about how people mentally visualize what a bullshitter looks like. This study was designed to do that.

The following quotes are examples of bullshit. Each of these is designed to sound profound or inspirational but are actually just jumbles of random words in a correct synactical structure without any semantic meaning:

'Synergistic strategies holistically predominate adaptive potentialities.'

'Thriving companies collaboratively utilize parallel fungibility.'

'In the near future, brave pioneers will use crowdsourcing to rapidly transform communities.'

'Soon, engaged change-makers will use virtual reality to efficiently socialize ideas.'

Press the SPACE BAR to continue to the next page.","You will be asked to classify faces as BULLSHITTERS!

In the next section, please indicate whether you believe the face on the left or the face on the right looks more like a BULLSHITTER.

Please use the LEFT and RIGHT arrow keys to indicate your response.

Press the SPACE BAR when you're ready to begin!",Which image looks most like a BULLSHITTER?,stimuli/rcic_base_1_00002_inv.jpg,stimuli/rcic_base_1_00002_ori.jpg,300,-300,0,0,6084343,1,2023-10-23_13h08.16.264,image_generation_task,2022.2.5,Win32,59.74786401,,,,,,,,right,1.1482,0,45,45,1,1,,,,,,
,,,,,,,"Bullshit is defined as any statement constructed without regard to the truth. This is in contrast to a lie, which is constructed with the truth as a reference point.

Bullshitters are people who continuously spread bullshit out into the world. While bullshit is frequently encountered in daily life, little is known about how people mentally visualize what a bullshitter looks like. This study was designed to do that.

The following quotes are examples of bullshit. Each of these is designed to sound profound or inspirational but are actually just jumbles of random words in a correct synactical structure without any semantic meaning:

'Synergistic strategies holistically predominate adaptive potentialities.'

'Thriving companies collaboratively utilize parallel fungibility.'

'In the near future, brave pioneers will use crowdsourcing to rapidly transform communities.'

'Soon, engaged change-makers will use virtual reality to efficiently socialize ideas.'

Press the SPACE BAR to continue to the next page.","You will be asked to classify faces as BULLSHITTERS!

In the next section, please indicate whether you believe the face on the left or the face on the right looks more like a BULLSHITTER.

Please use the LEFT and RIGHT arrow keys to indicate your response.

Press the SPACE BAR when you're ready to begin!",Which image looks most like a BULLSHITTER?,stimuli/rcic_base_1_00262_inv.jpg,stimuli/rcic_base_1_00262_ori.jpg,300,-300,0,0,6084343,1,2023-10-23_13h08.16.264,image_generation_task,2022.2.5,Win32,59.74786401,,,,,,,,right,1.1655,0,46,46,261,1,,,,,,
,,,,,,,"Bullshit is defined as any statement constructed without regard to the truth. This is in contrast to a lie, which is constructed with the truth as a reference point.

Bullshitters are people who continuously spread bullshit out into the world. While bullshit is frequently encountered in daily life, little is known about how people mentally visualize what a bullshitter looks like. This study was designed to do that.

The following quotes are examples of bullshit. Each of these is designed to sound profound or inspirational but are actually just jumbles of random words in a correct synactical structure without any semantic meaning:

'Synergistic strategies holistically predominate adaptive potentialities.'

'Thriving companies collaboratively utilize parallel fungibility.'

'In the near future, brave pioneers will use crowdsourcing to rapidly transform communities.'

'Soon, engaged change-makers will use virtual reality to efficiently socialize ideas.'

Press the SPACE BAR to continue to the next page.","You will be asked to classify faces as BULLSHITTERS!

In the next section, please indicate whether you believe the face on the left or the face on the right looks more like a BULLSHITTER.

Please use the LEFT and RIGHT arrow keys to indicate your response.

Press the SPACE BAR when you're ready to begin!",Which image looks most like a BULLSHITTER?,stimuli/rcic_base_1_00160_inv.jpg,stimuli/rcic_base_1_00160_ori.jpg,300,-300,0,0,6084343,1,2023-10-23_13h08.16.264,image_generation_task,2022.2.5,Win32,59.74786401,,,,,,,,left,1.2306,0,47,47,159,1,,,,,,
,,,,,,,"Bullshit is defined as any statement constructed without regard to the truth. This is in contrast to a lie, which is constructed with the truth as a reference point.

Bullshitters are people who continuously spread bullshit out into the world. While bullshit is frequently encountered in daily life, little is known about how people mentally visualize what a bullshitter looks like. This study was designed to do that.

The following quotes are examples of bullshit. Each of these is designed to sound profound or inspirational but are actually just jumbles of random words in a correct synactical structure without any semantic meaning:

'Synergistic strategies holistically predominate adaptive potentialities.'

'Thriving companies collaboratively utilize parallel fungibility.'

'In the near future, brave pioneers will use crowdsourcing to rapidly transform communities.'

'Soon, engaged change-makers will use virtual reality to efficiently socialize ideas.'

Press the SPACE BAR to continue to the next page.","You will be asked to classify faces as BULLSHITTERS!

In the next section, please indicate whether you believe the face on the left or the face on the right looks more like a BULLSHITTER.

Please use the LEFT and RIGHT arrow keys to indicate your response.

Press the SPACE BAR when you're ready to begin!",Which image looks most like a BULLSHITTER?,stimuli/rcic_base_1_00030_inv.jpg,stimuli/rcic_base_1_00030_ori.jpg,300,-300,0,0,6084343,1,2023-10-23_13h08.16.264,image_generation_task,2022.2.5,Win32,59.74786401,,,,,,,,left,1.0199,0,48,48,29,1,,,,,,
,,,,,,,"Bullshit is defined as any statement constructed without regard to the truth. This is in contrast to a lie, which is constructed with the truth as a reference point.

Bullshitters are people who continuously spread bullshit out into the world. While bullshit is frequently encountered in daily life, little is known about how people mentally visualize what a bullshitter looks like. This study was designed to do that.

The following quotes are examples of bullshit. Each of these is designed to sound profound or inspirational but are actually just jumbles of random words in a correct synactical structure without any semantic meaning:

'Synergistic strategies holistically predominate adaptive potentialities.'

'Thriving companies collaboratively utilize parallel fungibility.'

'In the near future, brave pioneers will use crowdsourcing to rapidly transform communities.'

'Soon, engaged change-makers will use virtual reality to efficiently socialize ideas.'

Press the SPACE BAR to continue to the next page.","You will be asked to classify faces as BULLSHITTERS!

In the next section, please indicate whether you believe the face on the left or the face on the right looks more like a BULLSHITTER.

Please use the LEFT and RIGHT arrow keys to indicate your response.

Press the SPACE BAR when you're ready to begin!",Which image looks most like a BULLSHITTER?,stimuli/rcic_base_1_00026_inv.jpg,stimuli/rcic_base_1_00026_ori.jpg,300,-300,0,0,6084343,1,2023-10-23_13h08.16.264,image_generation_task,2022.2.5,Win32,59.74786401,,,,,,,,left,4.6443,0,49,49,25,1,,,,,,
,,,,,,,"Bullshit is defined as any statement constructed without regard to the truth. This is in contrast to a lie, which is constructed with the truth as a reference point.

Bullshitters are people who continuously spread bullshit out into the world. While bullshit is frequently encountered in daily life, little is known about how people mentally visualize what a bullshitter looks like. This study was designed to do that.

The following quotes are examples of bullshit. Each of these is designed to sound profound or inspirational but are actually just jumbles of random words in a correct synactical structure without any semantic meaning:

'Synergistic strategies holistically predominate adaptive potentialities.'

'Thriving companies collaboratively utilize parallel fungibility.'

'In the near future, brave pioneers will use crowdsourcing to rapidly transform communities.'

'Soon, engaged change-makers will use virtual reality to efficiently socialize ideas.'

Press the SPACE BAR to continue to the next page.","You will be asked to classify faces as BULLSHITTERS!

In the next section, please indicate whether you believe the face on the left or the face on the right looks more like a BULLSHITTER.

Please use the LEFT and RIGHT arrow keys to indicate your response.

Press the SPACE BAR when you're ready to begin!",Which image looks most like a BULLSHITTER?,stimuli/rcic_base_1_00197_inv.jpg,stimuli/rcic_base_1_00197_ori.jpg,-300,300,0,0,6084343,1,2023-10-23_13h08.16.264,image_generation_task,2022.2.5,Win32,59.74786401,,,,,,,,right,1.4286,0,50,50,196,1,,,,,,
,,,,,,,"Bullshit is defined as any statement constructed without regard to the truth. This is in contrast to a lie, which is constructed with the truth as a reference point.

Bullshitters are people who continuously spread bullshit out into the world. While bullshit is frequently encountered in daily life, little is known about how people mentally visualize what a bullshitter looks like. This study was designed to do that.

The following quotes are examples of bullshit. Each of these is designed to sound profound or inspirational but are actually just jumbles of random words in a correct synactical structure without any semantic meaning:

'Synergistic strategies holistically predominate adaptive potentialities.'

'Thriving companies collaboratively utilize parallel fungibility.'

'In the near future, brave pioneers will use crowdsourcing to rapidly transform communities.'

'Soon, engaged change-makers will use virtual reality to efficiently socialize ideas.'

Press the SPACE BAR to continue to the next page.","You will be asked to classify faces as BULLSHITTERS!

In the next section, please indicate whether you believe the face on the left or the face on the right looks more like a BULLSHITTER.

Please use the LEFT and RIGHT arrow keys to indicate your response.

Press the SPACE BAR when you're ready to begin!",Which image looks most like a BULLSHITTER?,stimuli/rcic_base_1_00264_inv.jpg,stimuli/rcic_base_1_00264_ori.jpg,300,-300,0,0,6084343,1,2023-10-23_13h08.16.264,image_generation_task,2022.2.5,Win32,59.74786401,,,,,,,,left,1.9105,0,51,51,263,1,,,,,,
,,,,,,,"Bullshit is defined as any statement constructed without regard to the truth. This is in contrast to a lie, which is constructed with the truth as a reference point.

Bullshitters are people who continuously spread bullshit out into the world. While bullshit is frequently encountered in daily life, little is known about how people mentally visualize what a bullshitter looks like. This study was designed to do that.

The following quotes are examples of bullshit. Each of these is designed to sound profound or inspirational but are actually just jumbles of random words in a correct synactical structure without any semantic meaning:

'Synergistic strategies holistically predominate adaptive potentialities.'

'Thriving companies collaboratively utilize parallel fungibility.'

'In the near future, brave pioneers will use crowdsourcing to rapidly transform communities.'

'Soon, engaged change-makers will use virtual reality to efficiently socialize ideas.'

Press the SPACE BAR to continue to the next page.","You will be asked to classify faces as BULLSHITTERS!

In the next section, please indicate whether you believe the face on the left or the face on the right looks more like a BULLSHITTER.

Please use the LEFT and RIGHT arrow keys to indicate your response.

Press the SPACE BAR when you're ready to begin!",Which image looks most like a BULLSHITTER?,stimuli/rcic_base_1_00186_inv.jpg,stimuli/rcic_base_1_00186_ori.jpg,300,-300,0,0,6084343,1,2023-10-23_13h08.16.264,image_generation_task,2022.2.5,Win32,59.74786401,,,,,,,,right,0.7119,0,52,52,185,1,,,,,,
,,,,,,,"Bullshit is defined as any statement constructed without regard to the truth. This is in contrast to a lie, which is constructed with the truth as a reference point.

Bullshitters are people who continuously spread bullshit out into the world. While bullshit is frequently encountered in daily life, little is known about how people mentally visualize what a bullshitter looks like. This study was designed to do that.

The following quotes are examples of bullshit. Each of these is designed to sound profound or inspirational but are actually just jumbles of random words in a correct synactical structure without any semantic meaning:

'Synergistic strategies holistically predominate adaptive potentialities.'

'Thriving companies collaboratively utilize parallel fungibility.'

'In the near future, brave pioneers will use crowdsourcing to rapidly transform communities.'

'Soon, engaged change-makers will use virtual reality to efficiently socialize ideas.'

Press the SPACE BAR to continue to the next page.","You will be asked to classify faces as BULLSHITTERS!

In the next section, please indicate whether you believe the face on the left or the face on the right looks more like a BULLSHITTER.

Please use the LEFT and RIGHT arrow keys to indicate your response.

Press the SPACE BAR when you're ready to begin!",Which image looks most like a BULLSHITTER?,stimuli/rcic_base_1_00219_inv.jpg,stimuli/rcic_base_1_00219_ori.jpg,-300,300,0,0,6084343,1,2023-10-23_13h08.16.264,image_generation_task,2022.2.5,Win32,59.74786401,,,,,,,,left,0.9449,0,53,53,218,1,,,,,,
,,,,,,,"Bullshit is defined as any statement constructed without regard to the truth. This is in contrast to a lie, which is constructed with the truth as a reference point.

Bullshitters are people who continuously spread bullshit out into the world. While bullshit is frequently encountered in daily life, little is known about how people mentally visualize what a bullshitter looks like. This study was designed to do that.

The following quotes are examples of bullshit. Each of these is designed to sound profound or inspirational but are actually just jumbles of random words in a correct synactical structure without any semantic meaning:

'Synergistic strategies holistically predominate adaptive potentialities.'

'Thriving companies collaboratively utilize parallel fungibility.'

'In the near future, brave pioneers will use crowdsourcing to rapidly transform communities.'

'Soon, engaged change-makers will use virtual reality to efficiently socialize ideas.'

Press the SPACE BAR to continue to the next page.","You will be asked to classify faces as BULLSHITTERS!

In the next section, please indicate whether you believe the face on the left or the face on the right looks more like a BULLSHITTER.

Please use the LEFT and RIGHT arrow keys to indicate your response.

Press the SPACE BAR when you're ready to begin!",Which image looks most like a BULLSHITTER?,stimuli/rcic_base_1_00001_inv.jpg,stimuli/rcic_base_1_00001_ori.jpg,-300,300,0,0,6084343,1,2023-10-23_13h08.16.264,image_generation_task,2022.2.5,Win32,59.74786401,,,,,,,,right,0.9852,0,54,54,0,1,,,,,,
,,,,,,,"Bullshit is defined as any statement constructed without regard to the truth. This is in contrast to a lie, which is constructed with the truth as a reference point.

Bullshitters are people who continuously spread bullshit out into the world. While bullshit is frequently encountered in daily life, little is known about how people mentally visualize what a bullshitter looks like. This study was designed to do that.

The following quotes are examples of bullshit. Each of these is designed to sound profound or inspirational but are actually just jumbles of random words in a correct synactical structure without any semantic meaning:

'Synergistic strategies holistically predominate adaptive potentialities.'

'Thriving companies collaboratively utilize parallel fungibility.'

'In the near future, brave pioneers will use crowdsourcing to rapidly transform communities.'

'Soon, engaged change-makers will use virtual reality to efficiently socialize ideas.'

Press the SPACE BAR to continue to the next page.","You will be asked to classify faces as BULLSHITTERS!

In the next section, please indicate whether you believe the face on the left or the face on the right looks more like a BULLSHITTER.

Please use the LEFT and RIGHT arrow keys to indicate your response.

Press the SPACE BAR when you're ready to begin!",Which image looks most like a BULLSHITTER?,stimuli/rcic_base_1_00185_inv.jpg,stimuli/rcic_base_1_00185_ori.jpg,-300,300,0,0,6084343,1,2023-10-23_13h08.16.264,image_generation_task,2022.2.5,Win32,59.74786401,,,,,,,,left,1.4137,0,55,55,184,1,,,,,,
,,,,,,,"Bullshit is defined as any statement constructed without regard to the truth. This is in contrast to a lie, which is constructed with the truth as a reference point.

Bullshitters are people who continuously spread bullshit out into the world. While bullshit is frequently encountered in daily life, little is known about how people mentally visualize what a bullshitter looks like. This study was designed to do that.

The following quotes are examples of bullshit. Each of these is designed to sound profound or inspirational but are actually just jumbles of random words in a correct synactical structure without any semantic meaning:

'Synergistic strategies holistically predominate adaptive potentialities.'

'Thriving companies collaboratively utilize parallel fungibility.'

'In the near future, brave pioneers will use crowdsourcing to rapidly transform communities.'

'Soon, engaged change-makers will use virtual reality to efficiently socialize ideas.'

Press the SPACE BAR to continue to the next page.","You will be asked to classify faces as BULLSHITTERS!

In the next section, please indicate whether you believe the face on the left or the face on the right looks more like a BULLSHITTER.

Please use the LEFT and RIGHT arrow keys to indicate your response.

Press the SPACE BAR when you're ready to begin!",Which image looks most like a BULLSHITTER?,stimuli/rcic_base_1_00175_inv.jpg,stimuli/rcic_base_1_00175_ori.jpg,-300,300,0,0,6084343,1,2023-10-23_13h08.16.264,image_generation_task,2022.2.5,Win32,59.74786401,,,,,,,,left,1.8101,0,56,56,174,1,,,,,,
,,,,,,,"Bullshit is defined as any statement constructed without regard to the truth. This is in contrast to a lie, which is constructed with the truth as a reference point.

Bullshitters are people who continuously spread bullshit out into the world. While bullshit is frequently encountered in daily life, little is known about how people mentally visualize what a bullshitter looks like. This study was designed to do that.

The following quotes are examples of bullshit. Each of these is designed to sound profound or inspirational but are actually just jumbles of random words in a correct synactical structure without any semantic meaning:

'Synergistic strategies holistically predominate adaptive potentialities.'

'Thriving companies collaboratively utilize parallel fungibility.'

'In the near future, brave pioneers will use crowdsourcing to rapidly transform communities.'

'Soon, engaged change-makers will use virtual reality to efficiently socialize ideas.'

Press the SPACE BAR to continue to the next page.","You will be asked to classify faces as BULLSHITTERS!

In the next section, please indicate whether you believe the face on the left or the face on the right looks more like a BULLSHITTER.

Please use the LEFT and RIGHT arrow keys to indicate your response.

Press the SPACE BAR when you're ready to begin!",Which image looks most like a BULLSHITTER?,stimuli/rcic_base_1_00093_inv.jpg,stimuli/rcic_base_1_00093_ori.jpg,-300,300,0,0,6084343,1,2023-10-23_13h08.16.264,image_generation_task,2022.2.5,Win32,59.74786401,,,,,,,,right,1.035,0,57,57,92,1,,,,,,
,,,,,,,"Bullshit is defined as any statement constructed without regard to the truth. This is in contrast to a lie, which is constructed with the truth as a reference point.

Bullshitters are people who continuously spread bullshit out into the world. While bullshit is frequently encountered in daily life, little is known about how people mentally visualize what a bullshitter looks like. This study was designed to do that.

The following quotes are examples of bullshit. Each of these is designed to sound profound or inspirational but are actually just jumbles of random words in a correct synactical structure without any semantic meaning:

'Synergistic strategies holistically predominate adaptive potentialities.'

'Thriving companies collaboratively utilize parallel fungibility.'

'In the near future, brave pioneers will use crowdsourcing to rapidly transform communities.'

'Soon, engaged change-makers will use virtual reality to efficiently socialize ideas.'

Press the SPACE BAR to continue to the next page.","You will be asked to classify faces as BULLSHITTERS!

In the next section, please indicate whether you believe the face on the left or the face on the right looks more like a BULLSHITTER.

Please use the LEFT and RIGHT arrow keys to indicate your response.

Press the SPACE BAR when you're ready to begin!",Which image looks most like a BULLSHITTER?,stimuli/rcic_base_1_00031_inv.jpg,stimuli/rcic_base_1_00031_ori.jpg,-300,300,0,0,6084343,1,2023-10-23_13h08.16.264,image_generation_task,2022.2.5,Win32,59.74786401,,,,,,,,right,6.3954,0,58,58,30,1,,,,,,
,,,,,,,"Bullshit is defined as any statement constructed without regard to the truth. This is in contrast to a lie, which is constructed with the truth as a reference point.

Bullshitters are people who continuously spread bullshit out into the world. While bullshit is frequently encountered in daily life, little is known about how people mentally visualize what a bullshitter looks like. This study was designed to do that.

The following quotes are examples of bullshit. Each of these is designed to sound profound or inspirational but are actually just jumbles of random words in a correct synactical structure without any semantic meaning:

'Synergistic strategies holistically predominate adaptive potentialities.'

'Thriving companies collaboratively utilize parallel fungibility.'

'In the near future, brave pioneers will use crowdsourcing to rapidly transform communities.'

'Soon, engaged change-makers will use virtual reality to efficiently socialize ideas.'

Press the SPACE BAR to continue to the next page.","You will be asked to classify faces as BULLSHITTERS!

In the next section, please indicate whether you believe the face on the left or the face on the right looks more like a BULLSHITTER.

Please use the LEFT and RIGHT arrow keys to indicate your response.

Press the SPACE BAR when you're ready to begin!",Which image looks most like a BULLSHITTER?,stimuli/rcic_base_1_00115_inv.jpg,stimuli/rcic_base_1_00115_ori.jpg,-300,300,0,0,6084343,1,2023-10-23_13h08.16.264,image_generation_task,2022.2.5,Win32,59.74786401,,,,,,,,left,1.9921,0,59,59,114,1,,,,,,
,,,,,,,"Bullshit is defined as any statement constructed without regard to the truth. This is in contrast to a lie, which is constructed with the truth as a reference point.

